<?xml version="1.0" encoding="UTF-8"?>

<Bundle xmlns="http://hl7.org/fhir">
  <id value="1-5-ImmunizationRecommendationResponse"/>
  <meta>
    <lastUpdated value="2021-06-01T00:00:00.159+02:00"/>
    <profile value="http://fhir.ch/ig/ch-vacd/StructureDefinition/ch-vacd-recommendation-response-message"/>
  </meta>
  <identifier>
    <system value="urn:ietf:rfc:3986"/>
    <value value="urn:uuid:5b8a26b2-dd6d-4c04-acaf-e4a44b7bcf47"/>
  </identifier>
  <type value="message"/>
  <timestamp value="2021-06-01T00:00:00.159+02:00"/>
  <entry>
    <fullUrl value="http://test.fhir.ch/r4/MessageHeader/2-5-ImmunizationRecommendationResponseMessageHeader"/>
    <resource>
      <MessageHeader>
        <id value="2-5-ImmunizationRecommendationResponseMessageHeader"/>
        <meta>
          <lastUpdated value="2021-06-01T00:00:00.394+02:00"/>
          <profile value="http://fhir.ch/ig/ch-vacd/StructureDefinition/ch-vacd-recommendation-response-messageheader"/>
        </meta>
        <text>
          <status value="generated"/><div xmlns="http://www.w3.org/1999/xhtml"><a name="MessageHeader_2-5-ImmunizationRecommendationResponseMessageHeader"> </a><p class="res-header-id"><b>Generated Narrative: MessageHeader 2-5-ImmunizationRecommendationResponseMessageHeader</b></p><a name="2-5-ImmunizationRecommendationResponseMessageHeader"> </a><a name="hc2-5-ImmunizationRecommendationResponseMessageHeader"> </a><a name="2-5-ImmunizationRecommendationResponseMessageHeader-en-US"> </a><div style="display: inline-block; background-color: #d9e0e7; padding: 6px; margin: 4px; border: 1px solid #8da1b4; border-radius: 5px; line-height: 60%"><p style="margin-bottom: 0px">Last updated: 2021-06-01 00:00:00+0200</p><p style="margin-bottom: 0px">Profile: <a href="StructureDefinition-ch-vacd-recommendation-response-messageheader.html">CH VACD Immunization Recommendation Response MessageHeader</a></p></div><p><b>event</b>: <a href="CodeSystem-ch-vacd-clinical-decision-support-event-cs.html#ch-vacd-clinical-decision-support-event-cs-immunrecoresponse">CDS Event immunrecoresponse</a>: Immunization Recommendation Response</p><h3>Destinations</h3><table class="grid"><tr><td style="display: none">-</td><td><b>Name</b></td><td><b>Endpoint</b></td></tr><tr><td style="display: none">*</td><td>Example Portal EPR</td><td>urn:oid:1.2.3.4.5</td></tr></table><p><b>sender</b>: <a href="Organization-CDSS-Organization.html">Organization Immunization CDS Service</a></p><h3>Sources</h3><table class="grid"><tr><td style="display: none">-</td><td><b>Name</b></td><td><b>Endpoint</b></td></tr><tr><td style="display: none">*</td><td>Example Vaccination Clinical Decision Support System</td><td><a href="https://example.com/cds/immunization/ws">https://example.com/cds/immunization/ws</a></td></tr></table><p><b>responsible</b>: <a href="Organization-CDSS-Organization.html">Organization Immunization CDS Service</a></p><p><b>reason</b>: <span title="Codes:{http://snomed.info/sct 830152006}">Recommendation regarding vaccination (procedure)</span></p><h3>Responses</h3><table class="grid"><tr><td style="display: none">-</td><td><b>Identifier</b></td><td><b>Code</b></td></tr><tr><td style="display: none">*</td><td>1-4-ImmunizationRecommendationRequest</td><td>OK</td></tr></table><p><b>focus</b>: </p><ul><li><a href="ImmunizationRecommendation-10-4-ImmunizationRecommendation.html">ImmunizationRecommendation: identifier = urn:oid:2.16.756.5.30.1.147.1.3.1#1; date = 2021-06-01 00:00:00+0200</a></li><li><a href="ImmunizationRecommendation-10-3-ImmunizationRecommendation.html">ImmunizationRecommendation: identifier = urn:oid:2.16.756.5.30.1.147.1.3.1#2; date = 2021-06-01 00:00:00+0200</a></li></ul></div>
        </text>
        <eventCoding>
          <system value="http://fhir.ch/ig/ch-vacd/CodeSystem/ch-vacd-clinical-decision-support-event-cs"/>
          <code value="immunrecoresponse"/>
          <display value="Immunization Recommendation Response"/>
        </eventCoding>
        <destination>
          <name value="Example Portal EPR"/>
          <endpoint value="urn:oid:1.2.3.4.5"/>
        </destination>
        <sender>
          <reference value="Organization/CDSS-Organization"/>
        </sender>
        <source>
          <name value="Example Vaccination Clinical Decision Support System"/>
          <endpoint value="https://example.com/cds/immunization/ws"/>
        </source>
        <responsible>
          <reference value="Organization/CDSS-Organization"/>
        </responsible>
        <reason>
          <coding>
            <system value="http://snomed.info/sct"/>
            <code value="830152006"/>
            <display value="Recommendation regarding vaccination (procedure)"/>
          </coding>
        </reason>
        <response>
          <identifier value="1-4-ImmunizationRecommendationRequest"/>
          <code value="ok"/>
        </response>
        <focus>
          <reference value="ImmunizationRecommendation/10-4-ImmunizationRecommendation"/>
        </focus>
        <focus>
          <reference value="ImmunizationRecommendation/10-3-ImmunizationRecommendation"/>
        </focus>
      </MessageHeader>
    </resource>
  </entry>
  <entry>
    <fullUrl value="http://test.fhir.ch/r4/Patient/3-2-Patient"/>
    <resource>
      <Patient>
        <id value="3-2-Patient"/>
        <meta>
          <profile value="http://fhir.ch/ig/ch-core/StructureDefinition/ch-core-patient-epr"/>
        </meta>
        <text>
          <status value="generated"/><div xmlns="http://www.w3.org/1999/xhtml"><a name="Patient_3-2-Patient"> </a><p class="res-header-id"><b>Generated Narrative: Patient 3-2-Patient</b></p><a name="3-2-Patient"> </a><a name="hc3-2-Patient"> </a><a name="3-2-Patient-en-US"> </a><div style="display: inline-block; background-color: #d9e0e7; padding: 6px; margin: 4px; border: 1px solid #8da1b4; border-radius: 5px; line-height: 60%"><p style="margin-bottom: 0px"/><p style="margin-bottom: 0px">Profile: <a href="https://build.fhir.org/ig/hl7ch/ch-core/StructureDefinition-ch-core-patient-epr.html">CH Core Patient EPR</a></p></div><p style="border: 1px #661aff solid; background-color: #e6e6ff; padding: 10px;">Monika Wegmueller  Female, DoB: 1967-03-10 ( Medical record number)</p><hr/><table class="grid"><tr><td style="background-color: #f3f5da" title="Ways to contact the Patient">Contact Detail</td><td colspan="3">9876 </td></tr></table></div>
        </text>
        <identifier>
          <type>
            <coding>
              <system value="http://terminology.hl7.org/CodeSystem/v2-0203"/>
              <code value="MR"/>
            </coding>
          </type>
          <system value="urn:oid:1.2.3.4"/>
          <value value="12345678"/>
        </identifier>
        <name>
          <family value="Wegmueller"/>
          <given value="Monika"/>
        </name>
        <gender value="female"/>
        <birthDate value="1967-03-10"/>
        <address>
          <postalCode value="9876"/>
        </address>
      </Patient>
    </resource>
  </entry>
  <entry>
    <fullUrl value="http://test.fhir.ch/r4/Organization/CDSS-Organization"/>
    <resource>
      <Organization>
        <id value="CDSS-Organization"/>
        <meta>
          <profile value="http://fhir.ch/ig/ch-core/StructureDefinition/ch-core-organization"/>
        </meta>
        <text>
          <status value="generated"/><div xmlns="http://www.w3.org/1999/xhtml"><a name="Organization_CDSS-Organization"> </a><p class="res-header-id"><b>Generated Narrative: Organization CDSS-Organization</b></p><a name="CDSS-Organization"> </a><a name="hcCDSS-Organization"> </a><a name="CDSS-Organization-en-US"> </a><div style="display: inline-block; background-color: #d9e0e7; padding: 6px; margin: 4px; border: 1px solid #8da1b4; border-radius: 5px; line-height: 60%"><p style="margin-bottom: 0px"/><p style="margin-bottom: 0px">Profile: <a href="https://build.fhir.org/ig/hl7ch/ch-core/StructureDefinition-ch-core-organization.html">CH Core Organization</a></p></div><p><b>identifier</b>: <a href="https://www.gs1.org/standards/id-keys/gln" title="Global Location Number">GLN</a>/7601000000781</p><p><b>name</b>: Immunization CDS Service</p><p><b>address</b>: Mustergasse 99 Beispielen SG 9876 CH </p></div>
        </text>
        <identifier>
          <system value="urn:oid:2.51.1.3"/>
          <value value="7601000000781"/>
        </identifier>
        <name value="Immunization CDS Service"/>
        <address>
          <line value="Mustergasse 99"/>
          <city value="Beispielen"/>
          <state value="SG"/>
          <postalCode value="9876"/>
          <country value="CH"/>
        </address>
      </Organization>
    </resource>
  </entry>
  <entry>
    <fullUrl value="http://test.fhir.ch/r4/ImmunizationRecommendation/10-3-ImmunizationRecommendation"/>
    <resource>
      <ImmunizationRecommendation>
        <id value="10-3-ImmunizationRecommendation"/>
        <meta>
          <profile value="http://fhir.ch/ig/ch-vacd/StructureDefinition/ch-vacd-immunization-recommendation"/>
        </meta>
        <text>
          <status value="generated"/><div xmlns="http://www.w3.org/1999/xhtml"><a name="ImmunizationRecommendation_10-3-ImmunizationRecommendation"> </a><p class="res-header-id"><b>Generated Narrative: ImmunizationRecommendation 10-3-ImmunizationRecommendation</b></p><a name="10-3-ImmunizationRecommendation"> </a><a name="hc10-3-ImmunizationRecommendation"> </a><a name="10-3-ImmunizationRecommendation-en-US"> </a><div style="display: inline-block; background-color: #d9e0e7; padding: 6px; margin: 4px; border: 1px solid #8da1b4; border-radius: 5px; line-height: 60%"><p style="margin-bottom: 0px"/><p style="margin-bottom: 0px">Profile: <a href="StructureDefinition-ch-vacd-immunization-recommendation.html">CH VACD Immunization Recommendations</a></p></div><p><b>identifier</b>: <code>urn:oid:2.16.756.5.30.1.147.1.3.1</code>/2</p><p><b>patient</b>: <a href="Patient-3-2-Patient.html">Monika Wegmueller  Female, DoB: 1967-03-10 ( Medical record number)</a></p><p><b>date</b>: 2021-06-01 00:00:00+0200</p><blockquote><p><b>recommendation</b></p><p><b>vaccineCode</b>: <span title="Codes:{http://snomed.info/sct 1181000221105}">Vaccine product containing only Influenza virus antigen (medicinal product)</span></p><p><b>targetDisease</b>: <span title="Codes:{http://snomed.info/sct 719590007}">Influenza caused by seasonal influenza virus (disorder)</span></p><p><b>forecastStatus</b>: <span title="Codes:{http://fhir.ch/ig/ch-vacd/CodeSystem/ch-vacd-recommendation-forecast-status-cs due}">Due</span></p><p><b>forecastReason</b>: <span title="Codes:{http://fhir.ch/ig/ch-vacd/CodeSystem/ch-vacd-recommendation-categories-cs 41503}">Empfohlene Impfungen für Risikogruppen</span></p><h3>DateCriterions</h3><table class="grid"><tr><td style="display: none">-</td><td><b>Code</b></td><td><b>Value</b></td></tr><tr><td style="display: none">*</td><td><span title="Codes:{http://loinc.org 30980-7}">Date vaccine due</span></td><td>2021-06-01 00:00:00+0200</td></tr></table></blockquote></div>
        </text>
        <identifier>
          <system value="urn:oid:2.16.756.5.30.1.147.1.3.1"/>
          <value value="2"/>
        </identifier>
        <patient>
          <reference value="Patient/3-2-Patient"/>
        </patient>
        <date value="2021-06-01T00:00:00+02:00"/>
        <recommendation>
          <vaccineCode>
            <coding>
              <system value="http://snomed.info/sct"/>
              <code value="1181000221105"/>
              <display value="Vaccine product containing only Influenza virus antigen (medicinal product)"/>
            </coding>
          </vaccineCode>
          <targetDisease>
            <coding>
              <system value="http://snomed.info/sct"/>
              <code value="719590007"/>
              <display value="Influenza caused by seasonal influenza virus (disorder)"/>
            </coding>
          </targetDisease>
          <forecastStatus>
            <coding>
              <system value="http://fhir.ch/ig/ch-vacd/CodeSystem/ch-vacd-recommendation-forecast-status-cs"/>
              <code value="due"/>
              <display value="Due"/>
            </coding>
          </forecastStatus>
          <forecastReason>
            <coding>
              <system value="http://fhir.ch/ig/ch-vacd/CodeSystem/ch-vacd-recommendation-categories-cs"/>
              <code value="41503"/>
              <display value="Empfohlene Impfungen für Risikogruppen"/>
            </coding>
          </forecastReason>
          <dateCriterion>
            <code>
              <coding>
                <system value="http://loinc.org"/>
                <code value="30980-7"/>
                <display value="Date vaccine due"/>
              </coding>
            </code>
            <value value="2021-06-01T00:00:00+02:00"/>
          </dateCriterion>
        </recommendation>
      </ImmunizationRecommendation>
    </resource>
  </entry>
  <entry>
    <fullUrl value="http://test.fhir.ch/r4/ImmunizationRecommendation/10-4-ImmunizationRecommendation"/>
    <resource>
      <ImmunizationRecommendation>
        <id value="10-4-ImmunizationRecommendation"/>
        <meta>
          <profile value="http://fhir.ch/ig/ch-vacd/StructureDefinition/ch-vacd-immunization-recommendation"/>
        </meta>
        <text>
          <status value="generated"/><div xmlns="http://www.w3.org/1999/xhtml"><a name="ImmunizationRecommendation_10-4-ImmunizationRecommendation"> </a><p class="res-header-id"><b>Generated Narrative: ImmunizationRecommendation 10-4-ImmunizationRecommendation</b></p><a name="10-4-ImmunizationRecommendation"> </a><a name="hc10-4-ImmunizationRecommendation"> </a><a name="10-4-ImmunizationRecommendation-en-US"> </a><div style="display: inline-block; background-color: #d9e0e7; padding: 6px; margin: 4px; border: 1px solid #8da1b4; border-radius: 5px; line-height: 60%"><p style="margin-bottom: 0px"/><p style="margin-bottom: 0px">Profile: <a href="StructureDefinition-ch-vacd-immunization-recommendation.html">CH VACD Immunization Recommendations</a></p></div><p><b>identifier</b>: <code>urn:oid:2.16.756.5.30.1.147.1.3.1</code>/1</p><p><b>patient</b>: <a href="Patient-3-2-Patient.html">Monika Wegmueller  Female, DoB: 1967-03-10 ( Medical record number)</a></p><p><b>date</b>: 2021-06-01 00:00:00+0200</p><blockquote><p><b>recommendation</b></p><p><b>vaccineCode</b>: <span title="Codes:{http://snomed.info/sct 72093006}">Poliomyelitis vaccination</span></p><p><b>targetDisease</b>: <span title="Codes:{http://snomed.info/sct 398102009}">Acute poliomyelitis (disorder)</span></p><p><b>forecastStatus</b>: <span title="Codes:{http://fhir.ch/ig/ch-vacd/CodeSystem/ch-vacd-recommendation-forecast-status-cs due}">Due</span></p><p><b>forecastReason</b>: <span title="Codes:{http://fhir.ch/ig/ch-vacd/CodeSystem/ch-vacd-recommendation-categories-cs 41501}">Empfohlene Basisimpfungen</span></p><h3>DateCriterions</h3><table class="grid"><tr><td style="display: none">-</td><td><b>Code</b></td><td><b>Value</b></td></tr><tr><td style="display: none">*</td><td><span title="Codes:{http://loinc.org 30980-7}">Date vaccine due</span></td><td>2021-06-01 00:00:00+0200</td></tr></table></blockquote></div>
        </text>
        <identifier>
          <system value="urn:oid:2.16.756.5.30.1.147.1.3.1"/>
          <value value="1"/>
        </identifier>
        <patient>
          <reference value="Patient/3-2-Patient"/>
        </patient>
        <date value="2021-06-01T00:00:00+02:00"/>
        <recommendation>
          <vaccineCode>
            <coding>
              <system value="http://snomed.info/sct"/>
              <code value="72093006"/>
              <display value="Poliomyelitis vaccination"/>
            </coding>
          </vaccineCode>
          <targetDisease>
            <coding>
              <system value="http://snomed.info/sct"/>
              <code value="398102009"/>
              <display value="Acute poliomyelitis (disorder)"/>
            </coding>
          </targetDisease>
          <forecastStatus>
            <coding>
              <system value="http://fhir.ch/ig/ch-vacd/CodeSystem/ch-vacd-recommendation-forecast-status-cs"/>
              <code value="due"/>
              <display value="Due"/>
            </coding>
          </forecastStatus>
          <forecastReason>
            <coding>
              <system value="http://fhir.ch/ig/ch-vacd/CodeSystem/ch-vacd-recommendation-categories-cs"/>
              <code value="41501"/>
              <display value="Empfohlene Basisimpfungen"/>
            </coding>
          </forecastReason>
          <dateCriterion>
            <code>
              <coding>
                <system value="http://loinc.org"/>
                <code value="30980-7"/>
                <display value="Date vaccine due"/>
              </coding>
            </code>
            <value value="2021-06-01T00:00:00+02:00"/>
          </dateCriterion>
        </recommendation>
      </ImmunizationRecommendation>
    </resource>
  </entry>
</Bundle>